File: analysis/ellipsometry/band_gap/I Mitrovic/SiO2_reference.txt
Variable Angle Spectroscopic Ellipsometric (VASE) Data
Wavelength (nm)	Psi (65.00, 70.00, 75.00°)	Delta (65.00, 70.00, 75.00°)									Model
241.143	37.1475	110.128	37.3793	111.925	29.6182	162.698	30.0176	165.832	33.0691	250.918	33.6819	252.741
244.325	34.1286	148.892	34.4707	150.307	33.7286	221.997	34.1685	225.312	45.3111	263.671	45.8384	263.043
247.506	34.9999	195.233	35.0932	196.441	42.1969	242.704	42.8405	243.277	72.2053	140.527	68.8456	127.107
250.688	39.5085	224.211	39.6648	225.581	57.5958	190.857	58.1333	180.464	45.9962	65.6821	45.3423	66.4386
253.869	47.7733	212.785	48.158	211.453	48.097	91.7273	46.8949	90.6731	39.9792	66.9177	39.7107	69.4522
257.051	51.1801	133.066	50.4444	130.567	40.5666	83.1245	40.599	85.3204	33.9226	97.5048	33.8737	100.279
260.232	43.3424	99.085	42.9214	100.34	36.7121	106.476	36.7322	109.589	27.4738	165.368	27.6758	168.307
263.414	39.3929	108.482	39.382	111.057	33.6669	152.333	33.6056	155.566	33.1157	237.649	33.5261	240.044
266.596	36.9517	138.587	37.296	140.708	34.7444	206.114	34.8214	209.097	40.7573	266.832	40.92	268.105
269.778	36.8079	178.114	36.7251	179.27	39.0755	240.562	39.3246	243.038	49.7658	255.492	50.5527	253.179
272.96	38.3001	213.267	38.2742	214.309	45.0722	244.28	45.4628	244.057	62.1641	129.21	59.9711	122.737
276.142	41.5907	231.82	41.5603	232.67	55.672	190.04	55.7341	182.575	46.2058	70.7424	45.7296	71.6914
279.324	47.4243	220.187	47.5666	219.6	49.4595	104.175	48.3526	101.98	41.1745	68.0998	41.2004	69.6458
282.506	52.3607	157.809	52.0936	155.924	42.3675	85.7518	42.2542	87.0269	37.0806	86.3989	36.9658	88.3532
285.689	46.0745	109.882	45.5005	110.472	38.7048	96.7739	38.5226	98.501	30.3022	126.317	30.5006	128.448
288.871	40.6411	104.698	40.7223	105.912	34.6005	124.254	34.4712	126.142	26.7641	193.217	26.911	194.255
292.053	37.0891	119.527	37.3273	120.418	31.0326	165.315	30.9511	167.026	32.0033	246.942	31.9782	248.19
295.236	33.9294	144.207	34.4395	145.244	30.9162	208.947	31.0625	210.839	37.5094	-86.8024	37.7199	-86.5774
298.418	32.5452	175.743	32.7105	175.607	34.232	240.18	34.393	242.391	43.7486	-82.3364	43.8398	-82.2696
301.601	32.8124	205.777	32.9731	205.512	38.8206	255.759	39.0818	257.358	57.1941	257.389	57.6975	256.675
304.783	35.3425	228.635	35.1478	228.684	45.9701	253.031	46.5713	253.388	70.7896	125.57	69.7724	122.188
307.966	39.203	239.346	39.0419	240.794	60.234	215.702	61.2744	212.516	49.5498	74.6614	49.2381	75.7634
311.149	45.6484	236.411	45.804	236.761	59.0714	122.157	57.9969	119.794	41.8201	65.8677	41.7115	67.1544
314.331	56.432	202.552	56.4477	202.353	46.0227	89.6651	45.7147	90.5484	37.0338	70.2399	37.1184	71.6242
317.514	55.7609	136.782	55.2819	136.831	39.4453	85.086	39.5258	86.7179	31.7279	83.1155	32.0475	85.3265
320.697	45.8225	107.052	45.5531	108.129	34.9598	93.3634	35.2401	94.7789	25.1074	109	25.2841	110.136
323.88	39.5395	102.355	39.6018	103.687	30.9754	110.191	31.1418	111.614	18.3718	154.939	18.7131	154.768
327.063	35.7885	109.529	35.8437	110.861	27.1402	136.421	27.2092	137.262	19.6762	214.65	19.5465	214.199
330.245	32.7586	124.204	32.9968	125.35	24.7803	170.323	24.9155	171.142	26.5161	252.199	26.3159	252.497
333.428	30.611	145.244	30.8168	145.222	26.1939	205.628	25.8442	206.417	32.7791	-88.1912	32.7106	-87.508
336.611	29.5016	169.484	29.6209	168.669	29.5132	233.429	29.2434	234.168	38.3146	-78.9395	38.0533	-78.2801
339.794	30.0446	193.138	29.7757	192.879	33.7706	251.043	33.452	252.166	44.0098	-79.4378	44.1297	-78.5961
342.977	31.732	215.593	31.2544	214.568	37.8992	260.153	38.0549	261.049	54.9726	267.625	55.1647	268.188
346.16	34.088	230.284	33.7296	231.336	43.7877	258.87	44.0846	259.928	76.8913	203.474	76.8044	206.204
349.343	37.5626	240.669	37.0556	241.716	53.4405	242.056	54.0495	243.396	60.8571	92.9406	61.597	94.3567
352.526	42.1909	241.935	41.6372	243.951	65.5056	186.227	66.1468	187.832	47.9882	72.4395	48.2795	73.8145
355.709	48.5684	232.188	48.4609	234.097	57.7836	117.283	58.0297	118.611	42.0247	67.2998	42.3102	67.8192
358.892	56.7103	203.543	56.8513	202.482	47.9039	95.518	47.5445	94.765	38.6991	68.9878	38.6716	69.6854
362.075	55.9738	148.968	56.8846	150.492	41.9416	87.7483	41.7798	88.3429	34.8215	77.2456	35.3223	77.571
365.258	48.829	118.165	49.0911	118.924	38.4938	90.0111	38.0794	90.9972	30.9653	90.3131	31.1814	91.6003
368.441	43.6398	107.735	43.0174	107.918	34.9703	98.494	34.8404	100.003	25.7637	110.793	25.755	113.593
371.624	39.2759	107.926	38.9663	107.78	31.3444	113.178	31.414	114.364	20.0725	145.331	20.1494	147.823
374.807	35.8656	114.204	35.8532	114.115	27.8739	132.19	27.8621	133.973	18.006	193.035	18.2078	194.718
377.99	32.9366	124.642	33.1482	124.842	24.6305	157.313	24.9147	158.771	21.2338	235.336	21.5063	235.084
381.173	30.5997	139.038	30.7484	138.906	23.4949	185.694	23.6193	186.87	26.3016	260.818	26.4523	260.167
384.356	28.5386	155.926	28.7945	155.567	24.439	212.508	24.394	213.677	30.8718	-85.0718	30.9116	-84.6035
387.539	27.7524	174.159	27.5309	173.893	26.609	233.941	26.6265	235.368	34.617	-76.1076	34.717	-75.4849
390.722	27.1181	192.993	27.1467	192.548	29.5865	249.954	29.4915	251.233	38.4925	-71.6754	38.3761	-70.9603
393.905	27.8795	209.872	27.656	210.037	32.6888	260.235	32.5939	262.012	42.7277	-71.6391	42.7787	-70.678
397.088	29.147	225.299	28.9184	225.195	35.9241	266.77	36.0014	268.361	49.3233	-75.317	49.5077	-74.9952
400.271	31.181	237.201	30.7714	237.39	40.0705	268.932	40.1853	-89.5928	60.9425	-85.369	61.519	-85.0523
403.454	33.4198	245.412	33.1601	246.344	45.6191	266.229	46.1151	267.579	81.7802	244.465	81.8669	243.677
406.636	36.775	250.638	36.2219	251.824	54.6921	257.098	55.4259	257.796	72.447	92.3531	72.3647	92.5587
409.819	40.5017	252.633	40.3565	253.362	68.0922	231.22	69.15	230.885	56.0386	76.3934	56.2692	77.2226
413.002	46.3288	248.692	46.288	249.877	73.8735	153.915	74.056	150.609	47.0034	69.0332	47.2143	70.0128
416.185	54.4757	236.986	54.8486	238.45	61.1601	106.616	60.917	106.898	41.7357	66.2553	41.7184	66.9655
419.368	64.6969	208.927	64.7899	209.955	50.2812	92.5163	50.1837	92.9328	37.6892	65.9653	37.7598	66.9267
422.55	66.4768	156.841	66.5059	158.206	43.2157	86.3808	43.2336	87.3451	34.1005	68.673	34.3235	69.2118
425.733	57.5627	122.393	57.6638	124.034	38.3959	85.2744	38.4394	86.1501	30.6584	72.3667	30.8631	73.4602
428.916	48.5577	108.96	48.8282	109.942	34.5696	87.2978	34.7071	88.0016	26.7806	78.2846	27.0527	79.5938
432.098	42.1342	103.265	42.4407	104.487	31.2945	91.4608	31.4332	92.2918	22.4057	87.1799	22.7067	87.8798
435.281	37.4103	102.489	37.8761	103.653	28.1869	98.2496	28.3017	98.7965	17.44	98.1717	17.8002	99.2901
438.463	34.0254	104.928	34.4159	105.9	24.9401	107.05	25.1797	107.584	11.9921	116.98	12.6117	116.846
441.646	31.2684	109.786	31.601	110.493	21.8304	118.829	22.0855	119.011	7.901120	153.105	8.233585	150.014
444.828	28.8128	116.467	29.1795	117.045	19.0791	133.986	19.2002	133.704	7.608115	208.099	7.644115	204.786
448.01	26.5257	125.037	27.0377	125.354	16.7237	152.568	16.8867	152.291	11.5262	244.38	11.3034	242.428
451.193	24.8736	135.165	25.1559	135.302	15.4849	174.634	15.6293	174.399	16.2762	261.525	16.0218	261.368
454.375	23.2107	147.138	23.5802	146.764	15.777	197.773	15.761	197.476	20.8434	-86.8037	20.5148	-87.1054
457.557	22.0938	160.386	22.3934	159.522	17.395	218.119	17.1601	218.087	24.6944	-79.2645	24.505	-79.0863
460.739	21.4162	174.073	21.6838	173.168	19.7015	234.312	19.3725	234.625	28.1556	-73.5844	28.0114	-73.2243
463.921	21.5244	188.129	21.5074	187.092	22.1771	246.657	21.9626	247.35	31.4571	-69.5407	31.1653	-68.9757
467.103	22.0454	201.431	21.8619	200.6	24.7525	255.957	24.6692	257.057	34.2429	-66.3309	34.1566	-66.1022
470.285	22.9381	214.028	22.6883	213.096	27.5509	263.475	27.3898	264.412	37.3558	-65.2622	37.2298	-64.5045
473.467	24.1208	224.668	23.8982	224.202	30.4162	268.868	30.1361	269.848	40.8342	-64.9123	40.7128	-64.1423
476.648	25.6798	234.095	25.4075	233.759	33.0921	-87.3653	33.0057	-86.3912	45.1278	-65.6406	45.0738	-64.9583
479.83	27.5314	241.553	27.1613	241.743	36.1949	-85.4044	36.178	-84.1991	51.074	-67.5374	50.9996	-66.731
483.012	29.4279	248.267	29.148	248.19	39.8138	-84.536	39.9335	-83.5691	59.6587	-68.9235	59.4213	-68.6634
486.193	31.653	252.855	31.4068	253.133	44.5078	-85.9587	44.69	-84.5885	71.3199	-68.6177	71.1381	-67.4164
489.374	34.2849	255.604	34.0351	256.569	50.7131	-89.0332	51.0444	-87.4913	84.075	-28.9684	83.945	-27.7311
492.556	37.4924	257.43	37.2024	258.436	59.2996	265.747	59.7445	267.024	75.9501	62.2656	76.153	62.104
495.737	41.4796	257.617	41.165	258.57	70.8714	254.353	71.2729	255.805	63.612	66.771	63.833	67.7905
498.918	46.5877	255.336	46.2787	256.614	82.7788	206.379	83.1752	207.334	54.4936	65.5231	54.712	66.5275
502.099	53.3543	250.445	52.9573	251.731	76.9559	113.758	76.6598	112.854	48.0837	63.6625	48.2878	64.635
505.28	61.6663	239.937	61.3894	241.626	64.905	95.559	64.6773	95.6045	43.4645	62.5505	43.6531	63.2517
508.461	70.4405	216.209	70.3989	219.03	55.2724	88.2206	55.2886	88.6119	40.0023	61.9525	40.1129	62.6332
511.642	74.0819	169.207	74.224	171.876	48.268	84.1721	48.3924	84.7462	36.9981	61.8343	37.2081	62.7899
514.823	67.818	130.055	68.2248	131.807	43.2357	82.1708	43.2841	82.6845	34.4272	62.9017	34.6421	63.6627
518.003	59.0177	112.841	59.5002	114.252	39.1968	81.3863	39.3546	81.9688	31.9374	64.3874	32.2196	65.1822
521.184	51.4797	104.825	51.9436	106.024	35.9446	81.61	36.1739	82.3636	29.5679	66.4708	29.8067	67.2897
524.364	45.7435	101.002	46.0333	101.877	33.3929	83.0116	33.4548	83.7218	27.0959	69.0687	27.3087	69.9453
527.544	41.1331	99.0207	41.4712	100.047	30.7837	85.2694	31.0087	85.9501	24.3412	72.3316	24.6586	73.1324
530.724	37.6768	98.9159	37.8858	99.806	28.5506	88.2887	28.7112	89	21.3755	76.1512	21.8108	76.8697
533.904	34.6248	99.9604	34.9824	100.789	26.1669	92.3909	26.4839	92.8641	18.2471	80.6621	18.7432	81.2324
537.084	32.0237	102.231	32.55	102.787	24.0491	97.0747	24.2808	97.5826	14.9668	85.9624	15.457	86.4204
540.264	30.1375	104.983	30.4448	105.67	21.9037	103.223	22.0835	103.252	11.5033	92.9099	11.9846	92.9437
543.443	28.2366	108.78	28.5721	109.357	19.5517	110.118	19.9001	110.04	7.892466	102.234	8.405259	102.289
546.623	26.5519	113.394	26.8724	113.799	17.5259	118.502	17.7685	118.205	4.349879	123.156	4.930596	120.247
549.802	24.9488	118.618	25.312	118.971	15.4765	128.635	15.761	128.111	2.566983	187.418	2.672740	174.966
552.982	23.5019	124.978	23.8769	124.864	13.8374	140.604	13.993	140.177	4.709627	241.241	4.395654	238.007
556.161	22.2156	131.834	22.5686	131.471	12.5028	155.496	12.6238	154.69	8.114154	259.828	7.659788	258.514
559.34	21.0467	138.839	21.4004	138.785	11.8111	172.09	11.8316	171.36	11.3509	268.833	11.0096	268.314
562.519	20.0655	146.897	20.3946	146.775	11.83	189.063	11.7417	188.929	14.5085	-85.5187	14.2124	-85.2152
565.698	19.3217	155.275	19.5781	155.377	12.4314	205.437	12.3464	205.585	17.2616	-80.6258	17.205	-80.2657
568.876	18.7644	164.676	18.9783	164.471	13.5911	219.479	13.5069	220.032	20.079	-76.6385	19.9704	-76.2174
572.055	18.5107	174.946	18.6166	173.885	15.1885	231.657	15.0389	231.957	22.7001	-73.0449	22.5168	-72.8066
575.233	18.4075	184.475	18.5046	183.398	16.9505	241.125	16.7834	241.648	25.0253	-70.3791	24.8662	-69.9062
578.411	18.5638	193.918	18.6404	192.771	18.8058	248.939	18.6296	249.545	27.1817	-67.9532	27.0506	-67.4492
581.589	18.9865	203.025	19.0088	201.786	20.7232	255.466	20.5095	256.041	29.287	-65.8179	29.1092	-65.3973
584.767	19.7753	211.435	19.5851	210.269	22.6172	260.572	22.3866	261.43	31.2749	-64.3258	31.0869	-63.7281
587.945	20.5036	218.999	20.3391	218.109	24.5426	265.216	24.2471	265.921	33.2388	-62.9042	33.0348	-62.4281
591.122	21.5572	226.051	21.241	225.251	26.3717	269.041	26.0938	269.66	35.2513	-61.9433	35.012	-61.4868
594.299	22.6128	232.242	22.2645	231.682	28.1069	-88.1737	27.9421	-87.254	37.3323	-61.4771	37.0874	-60.8933
597.477	23.7234	237.897	23.3895	237.421	29.9767	-85.5288	29.8188	-84.7533	39.5559	-61.3819	39.3448	-60.6301
600.654	24.8596	242.706	24.6034	242.494	31.8867	-83.9378	31.7607	-82.793	42.1232	-61.3573	41.8859	-60.6646
603.831	26.134	246.984	25.9016	246.936	33.9957	-82.5095	33.8172	-81.3433	45.0432	-61.6509	44.8369	-60.9334
607.008	27.5817	250.687	27.2878	250.779	36.2412	-81.565	36.0508	-80.3858	48.6281	-62.0812	48.3502	-61.3152
610.184	29.1417	254.034	28.7741	254.05	38.6854	-81.1837	38.5406	-79.9091	53.0625	-62.3524	52.5993	-61.5757
613.361	30.824	256.229	30.3816	256.766	41.6637	-81.1441	41.387	-79.9062	58.3221	-62.0061	57.7526	-61.2444
616.537	32.5891	258.553	32.1412	258.94	44.9304	-81.7167	44.7136	-80.3715	64.5047	-59.9506	63.8921	-59.2859
619.713	34.478	260.047	34.0946	260.573	48.8429	-82.4899	48.6699	-81.2999	71.314	-52.9412	70.8076	-53.0393
622.889	36.589	261.146	36.2977	261.656	53.6303	-84.0864	53.4294	-82.6913	77.9303	-32.7013	77.3725	-34.4571
626.064	39.1913	261.209	38.82	262.167	59.2953	-85.9659	59.1651	-84.5627	79.6124	12.6306	79.7259	8.755304
629.24	42.2175	260.913	41.7483	262.064	66.2226	-88.6312	66.006	-87.0039	74.8057	43.9204	75.2669	42.8738
632.415	45.715	260.101	45.1851	261.269	74.1176	267.84	73.9471	269.583	67.982	55.4795	68.6105	55.2669
635.59	49.6685	258.492	49.245	259.647	82.9066	258.523	82.731	262.415	61.63	59.227	62.271	59.5232
638.765	54.6097	255.582	54.0364	256.932	87.3372	120.031	87.6612	118.48	56.3925	60.3563	56.8253	60.8445
641.94	60.1104	251.104	59.6211	252.578	78.5905	93.2722	78.928	92.9311	51.972	60.4689	52.303	61.011
645.115	66.4589	243.195	65.9159	245.32	70.3751	88.5457	70.7658	88.3291	48.2963	60.088	48.5754	60.7446
648.289	73.0356	229.209	72.4519	231.879	63.4879	85.3446	63.6619	85.5233	45.2834	59.6	45.4834	60.376
651.463	77.7548	198.602	77.6658	204.093	57.5011	82.8682	57.673	83.4258	42.6839	59.419	42.8808	60.0653
654.638	77.4614	153.678	78.0861	160.643	52.3678	81.1903	52.6947	81.8034	40.3755	59.2053	40.6458	59.89
657.811	73.3798	130.121	73.4181	130.568	48.9285	80.2489	48.5664	80.5816	38.6855	59.2146	38.6827	59.885
660.985	66.5582	114.52	67.2209	116.033	45.1417	79.4036	45.1217	79.7262	36.7234	59.3722	36.9169	60.0624
664.158	60.6247	107.3	61.2074	108.293	42.1494	78.7864	42.212	79.2143	35.1968	59.863	35.2895	60.4224
667.331	55.1762	102.7	55.8658	103.657	39.5664	78.5605	39.7164	79.0271	33.6434	60.4525	33.7555	60.9586
670.504	50.7334	99.9721	51.2772	100.702	37.4331	78.6403	37.538	79.1466	32.1635	61.1489	32.2791	61.6615
673.677	46.927	98.0391	47.3812	98.8048	35.4658	79.1745	35.6001	79.5563	30.6918	61.8457	30.8315	62.5208
676.85	43.5699	96.7596	44.0778	97.6564	33.7675	79.9138	33.8441	80.2409	29.2563	62.8355	29.3906	63.5251
680.022	40.8552	96.215	41.2613	97.0853	32.0729	80.7334	32.2236	81.1879	27.7154	64.2548	27.9376	64.6638
683.194	38.5073	96.1785	38.838	96.9879	30.4457	81.887	30.7026	82.3873	26.2027	65.4019	26.4577	65.9266
686.366	36.461	96.7341	36.7302	97.2964	29.0738	83.4251	29.2536	83.8318	24.6355	66.7621	24.9394	67.3031
689.537	34.5548	97.5664	34.8739	97.9637	27.6676	85.0948	27.8547	85.5181	23.0471	68.1235	23.3731	68.7843
692.709	32.8521	98.316	33.2187	98.9552	26.2748	87.1427	26.4897	87.4466	21.4219	69.6605	21.7522	70.3606
695.88	31.4083	99.6368	31.7244	100.245	24.8001	89.4304	25.1461	89.6225	19.7009	71.3695	20.0721	72.0236
699.051	30.0903	101.384	30.3596	101.815	23.5325	91.8072	23.8152	92.0556	17.9866	73.1478	18.3306	73.7649
702.222	28.7755	103.225	29.1002	103.648	22.2469	94.8312	22.4916	94.762	16.1614	74.9572	16.5278	75.5765
705.392	27.5737	105.171	27.9269	105.736	20.9302	97.6638	21.172	97.7661	14.3031	76.6362	14.6656	77.4524
708.562	26.4651	107.635	26.8256	108.07	19.5788	100.931	19.8566	101.101	12.3071	78.4396	12.7483	79.3876
711.733	25.3636	110.231	25.7855	110.645	18.2726	104.69	18.5484	104.812	10.3359	80.3972	10.7823	81.3809
714.903	24.446	113.222	24.7993	113.459	17.0002	108.935	17.2535	108.957	8.315524	82.463	8.776107	83.4386
718.072	23.4506	116.565	23.8619	116.511	15.6857	113.884	15.9813	113.613	6.279313	83.6322	6.739307	85.5865
721.241	22.558	119.993	22.9704	119.803	14.4715	119.464	14.7457	118.876	4.125308	85.4225	4.683015	87.9126
724.41	21.7157	123.475	22.1238	123.337	13.3447	125.712	13.5653	124.865	2.150314	88.0053	2.619273	90.8099
727.579	20.9979	127.264	21.3231	127.115	12.2182	132.589	12.465	131.712	0.157895	72.8698	0.565983	100.494
730.748	20.2735	131.377	20.5703	131.137	11.2357	140.268	11.4762	139.55	1.838243	-87.5035	1.488700	268.854
733.916	19.5462	135.786	19.8687	135.404	10.4838	149.479	10.637	148.475	3.888160	-84.8694	3.501734	-87.0915
737.084	18.9251	139.93	19.2226	139.912	9.922986	159.08	9.989619	158.48	5.747838	-83.9578	5.477619	-84.643
740.252	18.338	144.747	18.6368	144.656	9.596627	169.902	9.574530	169.378	7.657573	-81.938	7.405913	-82.5421
743.419	17.7805	149.633	18.1169	149.622	9.386602	181.472	9.420375	180.765	9.553592	-79.9272	9.278890	-80.5994
746.586	17.4005	155.379	17.6681	154.79	9.529918	192.961	9.534378	192.087	11.406	-78.2933	11.0906	-78.7618
749.753	17.0493	161.083	17.2956	160.133	10.0543	203.484	9.898976	202.807	13.1229	-77.2029	12.8368	-77.0102
752.92	16.7349	166.61	17.0038	165.617	10.5915	213.266	10.4776	212.557	14.784	-75.0929	14.5148	-75.3375
756.086	16.6052	172.37	16.7959	171.196	11.4425	221.295	11.2255	221.186	16.3926	-73.7328	16.1235	-73.7412
759.253	16.5067	177.994	16.6739	176.825	12.257	229.101	12.0993	228.714	17.9143	-72.2389	17.6635	-72.221
762.419	16.5188	183.52	16.638	182.451	13.1438	235.216	13.0617	235.248	19.3531	-70.8567	19.1364	-70.777
765.584	16.6228	189.19	16.6868	188.022	14.1949	240.859	14.0832	240.928	20.7515	-69.3935	20.5449	-69.4103
768.75	16.8025	194.618	16.8173	193.487	15.2981	245.847	15.141	245.888	22.1189	-68.3493	21.8924	-68.1221
771.915	16.9941	199.988	17.0251	198.805	16.382	249.95	16.2188	250.246	23.404	-67.1346	23.1833	-66.9131
775.079	17.397	205.158	17.3048	203.938	17.4432	253.906	17.3046	254.102	24.6723	-65.7835	24.4227	-65.7839
778.244	17.7052	209.867	17.6503	208.86	18.6258	257.171	18.3904	257.534	25.8794	-64.9435	25.6162	-64.7352
781.408	18.1158	214.58	18.0551	213.55	19.7077	260.337	19.4705	260.605	27.0351	-64.0937	26.7697	-63.7676
784.572	18.6627	219.094	18.5127	217.997	20.7885	262.777	20.5416	263.365	28.1709	-63.1357	27.8895	-62.8815
787.736	19.2052	223.178	19.0173	222.197	21.848	265.436	21.6026	265.853	29.2937	-62.2781	28.9828	-62.0769
790.899	19.7887	226.874	19.5628	226.149	22.8714	267.702	22.6532	268.101	30.3859	-61.7119	30.0565	-61.354
794.062	20.294	230.448	20.1443	229.856	23.8842	269.42	23.6942	-89.8673	31.2864	-61.0887	31.1181	-60.7126
797.225	21.0479	233.747	20.7577	233.326	24.9123	-88.7005	24.7283	-88.0308	32.3762	-60.5422	32.176	-60.1521
800.387	21.674	236.884	21.3994	236.568	25.9731	-86.9716	25.7581	-86.3735	33.4831	-60.0899	33.2389	-59.6716
803.549	22.2978	239.867	22.0667	239.591	26.9824	-85.6674	26.7878	-84.8821	34.5684	-59.612	34.3162	-59.2699
806.711	23.0396	242.668	22.7577	242.404	27.9787	-83.9837	27.8217	-83.5463	35.6867	-59.3741	35.4179	-58.9449
809.873	23.7111	245.486	23.4714	245.017	29.0208	-82.7886	28.8653	-82.3571	36.8224	-58.7864	36.5552	-58.6937
813.034	24.5533	247.449	24.207	247.437	30.0268	-81.9702	29.9244	-81.3077	38.0695	-58.8253	37.7398	-58.5126
816.194	25.23	249.887	24.965	249.674	31.152	-81.0225	31.0061	-80.3919	39.2807	-58.7013	38.9849	-58.3957
819.355	26.06	251.604	25.7468	251.736	32.2177	-80.5546	32.1184	-79.6045	40.6374	-58.7972	40.3053	-58.3356
822.515	26.9023	253.685	26.5539	253.63	33.4526	-79.7939	33.2699	-78.941	41.9977	-58.7888	41.717	-58.3219
825.675	27.7426	255.055	27.389	255.361	34.6332	-79.1389	34.4706	-78.3976	43.5347	-58.9856	43.2372	-58.3406
828.835	28.5431	256.962	28.2551	256.934	35.9323	-78.7724	35.7311	-77.9706	45.2821	-58.9664	44.8845	-58.3724
831.994	29.4937	258.352	29.1564	258.354	37.3081	-78.6421	37.0639	-77.6562	46.9828	-59.1371	46.679	-58.3916
835.153	30.4901	259.483	30.0976	259.625	38.6307	-78.5169	38.4826	-77.4509	49.1303	-59.132	48.6408	-58.3627
838.311	31.3837	260.476	31.0843	260.75	40.3194	-78.4378	40.0025	-77.3502	51.217	-58.7026	50.7903	-58.2368
841.47	32.4873	261.239	32.1234	261.731	41.7727	-78.2364	41.6409	-77.3495	53.5533	-58.4926	53.1458	-57.9461
844.628	33.388	262.493	33.2221	262.569	43.7073	-78.5178	43.4161	-77.443	56.1161	-57.7575	55.7198	-57.3934
847.786	34.6419	262.623	34.3889	263.265	45.4953	-79.0537	45.348	-77.6237	58.9954	-56.892	58.5156	-56.438
850.942	36.0336	263.478	35.6332	263.819	47.6915	-78.7573	47.4581	-77.8826	62.0429	-55.1217	61.5208	-54.8701
854.1	37.1951	263.639	36.9666	264.23	50.0308	-79.0867	49.7699	-78.2086	65.0014	-51.8706	64.6978	-52.3652
857.256	38.6537	263.833	38.4005	264.496	52.6548	-79.4454	52.3056	-78.5869	68.5393	-48.0566	67.9636	-48.4161
860.413	40.4358	264.021	39.9483	264.613	55.4516	-79.4814	55.0872	-78.9972	71.4564	-40.7441	71.1656	-42.2258
863.568	41.8976	263.815	41.6246	264.575	58.3144	-81.0209	58.1332	-79.4118	74.3311	-30.4458	74.0358	-32.6537
866.724	43.7924	263.767	43.4454	264.376	61.6314	-80.9952	61.4582	-79.7893	76.2208	-16.3782	76.1464	-18.6094
869.879	45.806	262.954	45.427	264.002	65.5564	-81.0567	65.0665	-80.0644	76.8665	2.233934	76.9756	-0.735147
873.034	48.1327	262.337	47.5872	263.439	68.9019	-82.0448	68.952	-80.1226	76.0271	19.601	76.2629	17.1755
876.188	50.4207	261.391	49.9418	262.663	73.4559	-80.7954	73.0891	-79.7381	73.5523	32.7814	74.2918	31.296
879.342	53.0657	260.237	52.5072	261.638	77.7524	-78.9639	77.4323	-78.3691	70.798	41.9602	71.5928	40.967
882.496	55.776	258.714	55.296	260.313	82.2765	-75.1432	81.897	-74.2845	68.0429	47.8295	68.5904	47.2671
885.65	58.715	257.347	58.3143	258.606	86.7922	-57.6888	86.2327	-57.7375	64.9063	50.9913	65.5428	51.3339
888.803	61.9746	254.906	61.5587	256.391	87.5052	49.9067	87.5388	36.0919	62.1098	54.0069	62.5914	53.9622
891.955	65.6333	251.651	65.0122	253.454	83.2303	71.295	83.613	70.5543	59.1084	55.3984	59.8073	55.6571
895.108	69.3525	247.618	68.6334	249.42	78.8264	77.6908	79.2702	77.0047	56.6096	56.5593	57.222	56.7376
898.26	72.6351	239.184	72.3393	243.594	74.4363	79.6868	75.0481	79.0844	54.4552	57.245	54.8442	57.4085
901.411	76.2746	230.17	75.9671	234.608	70.7198	79.3932	71.0467	79.7902	52.3959	57.3889	52.6694	57.8054
904.562	79.0253	213.332	79.1814	219.771	67.3085	79.6856	67.3062	79.9164	50.3849	57.6464	50.6846	58.0203
907.713	81.725	190.711	81.2769	195.467	63.5445	79.575	63.8435	79.7644	48.807	57.6861	48.8732	58.1172
910.864	80.9099	160.127	81.2998	164.874	60.4708	79.6585	60.6615	79.4739	47.2271	57.6507	47.2189	58.1403
914.013	78.3225	139.963	79.2788	140.665	57.6862	79.4205	57.7518	79.1201	45.7397	57.5904	45.7045	58.1219
917.163	75.3547	124.764	76.1918	125.897	54.8667	79.1273	55.0978	78.7464	44.2207	57.462	44.3132	58.0844
920.313	72.2713	115.938	72.74	116.953	52.9374	78.3553	52.6804	78.3802	42.969	57.5069	43.0301	58.0444
923.461	68.9625	111.946	69.2483	111.157	50.3326	77.7216	50.4788	78.0394	41.9475	57.4717	41.8415	58.0136
926.61	65.4589	106.665	65.8629	107.141	48.5009	77.6867	48.471	77.7356	40.7258	57.413	40.7348	58.0004
929.758	62.4883	104.091	62.6549	104.213	46.6954	77.3163	46.6368	77.477	39.5038	57.7304	39.6991	58.0105
932.906	59.5456	101.593	59.6554	101.996	45.1613	77.0009	44.9567	77.2688	38.7491	57.4766	38.7247	58.048
936.053	57.1598	99.565	56.8745	100.274	43.52	77.3708	43.4128	77.1147	37.7347	58.2526	37.8028	58.1154
939.2	54.1115	99.0802	54.3102	98.9173	42.2306	76.6827	41.9891	77.0166	37.1715	57.8891	36.9259	58.2143
942.347	51.3908	97.2449	51.9522	97.8404	40.491	76.9767	40.6708	76.9758	35.8946	58.2246	36.0871	58.3455
945.492	49.0153	96.3731	49.7884	96.9877	39.1425	75.9705	39.4455	76.9928	35.0693	58.3482	35.2808	58.509
948.638	46.6357	96.8078	47.8031	96.3205	37.937	77.2597	38.3015	77.0675	34.1077	58.3655	34.5015	58.7047
951.784	45.4898	95.1734	45.9804	95.8111	37.0943	77.4815	37.2287	77.1994	33.5675	58.5078	33.7446	58.932
954.928	43.1642	95.5076	44.3053	95.4392	35.9018	77.3705	36.2183	77.3879	32.7602	58.9088	33.0062	59.1899
958.073	41.9232	93.9181	42.7625	95.1895	35.0458	78.244	35.2621	77.6324	31.9754	59.3166	32.2823	59.4777
961.217	40.3103	94.4219	41.3385	95.0498	34.174	77.674	34.3532	77.9316	31.241	59.6596	31.5698	59.794
964.361	39.5975	94.8742	40.0212	95.011	33.139	78.2765	33.4859	78.2847	30.6176	59.7398	30.8661	60.1376
967.504	38.3126	94.3689	38.7989	95.0653	32.3521	78.7672	32.6546	78.6906	29.9739	60.1116	30.1683	60.5071
970.647	37.2318	94.6459	37.6614	95.2064	31.606	79.242	31.8544	79.1485	29.2382	60.7277	29.4743	60.9014
973.789	36.2574	95.4536	36.5998	95.4291	31.0235	79.9267	31.0814	79.6574	28.5229	61.221	28.7821	61.3189
976.931	35.1783	95.3208	35.6055	95.7289	30.3578	80.0525	30.3316	80.2167	28.0444	61.0714	28.0896	61.7581
980.072	34.4415	95.5005	34.6721	96.1019	29.351	80.8869	29.6023	80.8253	27.1796	61.6468	27.3957	62.2174
983.213	33.421	96.641	33.7924	96.5447	28.8065	81.4507	28.8902	81.483	26.5813	62.1716	26.6986	62.6954
986.354	33.0418	96.4315	32.9609	97.0546	27.9556	82.2193	28.1928	82.1894	25.7447	62.5058	25.9971	63.1906
989.495	31.7929	96.8384	32.1726	97.6291	27.2915	82.8378	27.508	82.9442	25.1801	63.1114	25.29	63.7013
992.634	31.0403	98.0705	31.4233	98.2654	26.6727	84.0838	26.834	83.7469	24.4002	63.4623	24.5767	64.2256
995.774	30.6418	98.4371	30.7087	98.9623	26.0776	84.5789	26.1689	84.5983	23.681	63.5155	23.8559	64.7621
998.912	30.0979	99.6379	30.0256	99.7175	25.3747	85.1339	25.5114	85.4981	22.9455	64.6446	23.1273	65.3085
1015.75	25.6988	104.833	26.7837	104.713	21.2465	92.2116	22.0677	91.1909	18.0011	68.3972	19.0622	68.3235
1022.7	24.9437	108.033	25.6054	107.22	19.9583	95.6252	20.6701	94.0043	16.3233	69.3114	17.3015	69.5458
1029.65	23.9428	110.911	24.5003	109.974	18.6089	98.369	19.2833	97.125	14.6013	70.4182	15.4959	70.6948
1036.59	23.0805	114.68	23.4588	112.974	17.2789	102.209	17.908	100.596	12.7306	71.0419	13.6491	71.7087
1043.53	21.9547	117.133	22.4754	116.219	15.9136	106.216	16.5487	104.476	10.8152	72.0463	11.768	72.4916
1050.46	21.0605	120.928	21.5465	119.712	14.6472	110.912	15.2125	108.843	9.020892	71.8662	9.861322	72.881
1057.38	20.1403	124.265	20.6709	123.454	13.3882	115.768	13.9109	113.802	7.106301	71.1904	7.941437	72.5674
1064.3	19.438	128.615	19.8496	127.447	12.2078	121.683	12.6603	119.488	5.271331	68.1631	6.027210	70.867
1071.22	18.7461	133.214	19.0847	131.691	11.1358	128.848	11.4828	126.068	3.478578	60.6092	4.154320	65.9164
1078.12	18.033	137.425	18.3794	136.188	10.0749	136.715	10.4076	133.738	1.934300	36.1685	2.435449	50.8056
1085.03	17.3911	142.227	17.7382	140.93	9.283205	145.864	9.473211	142.681	1.738347	-23.5143	1.505269	-0.184770
1091.93	16.9884	147.291	17.1658	145.907	8.641791	156.097	8.725204	153	3.014962	-55.6608	2.454117	-49.6264
1098.82	16.4397	152.481	16.6672	151.101	8.197633	167.74	8.212253	164.58	4.666290	-66.2107	4.102031	-64.1866
1105.71	15.9873	157.982	16.2472	156.485	8.049797	179.971	7.973899	176.984	6.430014	-69.7904	5.846958	-69.0914
1112.6	15.6965	163.343	15.9101	162.025	8.130929	192.195	8.025489	189.483	8.118970	-70.7764	7.584992	-70.901
1119.48	15.4461	169	15.6587	167.675	8.557444	203.196	8.350058	201.3	9.781706	-71.3001	9.285947	-71.4024
1126.35	15.3211	174.687	15.495	173.384	9.150481	213.427	8.904858	211.904	11.389	-71.2534	10.9371	-71.2545
1133.22	15.2728	180.47	15.4188	179.097	9.880515	222.183	9.636752	221.1	12.9517	-70.7992	12.5323	-70.754
1140.09	15.378	186.198	15.4286	184.757	10.7489	229.487	10.4952	228.945	14.458	-69.898	14.068	-70.0531
1146.96	15.5237	191.688	15.5209	190.312	11.654	236.205	11.4391	235.615	15.8933	-69.3806	15.5434	-69.2387
1153.82	15.7804	196.84	15.691	195.712	12.6487	241.441	12.4368	241.309	17.295	-68.2771	16.9582	-68.3643
1160.67	15.9491	201.993	15.933	200.92	13.7336	245.97	13.4656	246.21	18.6208	-67.5551	18.3139	-67.4636
1167.52	16.2996	206.962	16.2404	205.905	14.7257	250.655	14.5092	250.466	19.8963	-66.7073	19.6125	-66.5603
1174.37	16.6724	211.365	16.6063	210.647	15.8088	253.904	15.5563	254.198	21.1849	-65.7418	20.857	-65.6702
1181.22	17.1402	215.939	17.0238	215.136	16.7852	257.115	16.5992	257.5	22.3777	-64.7771	22.0508	-64.8044
1188.06	17.6087	220.021	17.4862	219.366	17.8258	260.138	17.6325	260.441	23.4918	-64.0713	23.1974	-63.9718
1194.9	18.0257	224.125	17.9875	223.34	18.8397	262.646	18.6531	263.079	24.5913	-63.3	24.3012	-63.178
1201.74	18.6822	227.689	18.5224	227.064	19.8464	265.166	19.6596	265.456	25.6834	-62.5468	25.3667	-62.4276
1208.57	19.1502	231.362	19.086	230.547	20.8708	267.217	20.6512	267.607	26.6485	-61.8872	26.3981	-61.7242
1215.4	19.7765	234.15	19.6742	233.799	21.8479	269.141	21.6283	269.558	27.6946	-61.23	27.4003	-61.0698
1222.23	20.4019	237.577	20.2839	236.833	22.7558	-88.9148	22.5922	-88.668	28.7045	-60.5722	28.3785	-60.4663
1229.06	21.0416	240.114	20.9123	239.66	23.7696	-87.4821	23.5442	-87.0543	29.6339	-60.1483	29.3373	-59.9146
1235.88	21.7682	242.169	21.5576	242.292	24.669	-86.0462	24.487	-85.5864	30.4952	-59.7082	30.2823	-59.4154
1242.7	22.3427	244.877	22.2183	244.74	25.585	-84.7683	25.423	-84.2525	31.5317	-59.1395	31.2188	-58.9688
1249.52	23.0921	247.3	22.8939	247.015	26.5251	-83.3818	26.3554	-83.043	32.4106	-58.7712	32.1523	-58.5745
1256.33	23.7818	249.08	23.5838	249.126	27.4581	-82.3971	27.2873	-81.9498	33.4023	-58.2667	33.0884	-58.2319
1263.15	24.442	251.076	24.2885	251.082	28.4427	-81.4647	28.2229	-80.9657	34.2463	-58.4086	34.0335	-57.9396
1269.96	25.1843	253.025	25.0087	252.891	29.3057	-80.5288	29.166	-80.0851	35.3003	-57.9847	34.9936	-57.6962
1276.77	25.8847	254.606	25.7454	254.561	30.3296	-79.8826	30.1213	-79.3027	36.2433	-57.6712	35.9755	-57.4993
1283.58	26.5883	256.217	26.5005	256.097	31.211	-79.1782	31.0938	-78.6138	37.1673	-57.6137	36.9864	-57.3459
1290.39	27.5566	257.854	27.2754	257.506	32.3599	-78.2407	32.0882	-78.0146	38.306	-57.4488	38.0333	-57.2324
1297.2	28.206	258.884	28.0731	258.793	33.2848	-77.7773	33.1108	-77.5011	39.4429	-57.4018	39.1244	-57.1541
1304	29.0306	259.777	28.8962	259.963	34.2862	-77.5272	34.1677	-77.0697	40.4422	-57.2057	40.268	-57.1047
1310.81	29.9568	261.036	29.7479	261.018	35.3952	-77.3845	35.2652	-76.7172	41.6766	-57.2523	41.4729	-57.0771
1317.61	30.9513	261.751	30.6317	261.964	36.5781	-76.7312	36.4107	-76.4398	42.9312	-57.4673	42.7482	-57.0615
1324.41	31.7326	263.032	31.5517	262.801	37.7295	-76.7661	37.6118	-76.2343	44.3567	-57.3465	44.1035	-57.0463
1331.21	32.5911	263.634	32.5127	263.535	39.046	-76.6358	38.8772	-76.0965	45.7432	-57.4026	45.5491	-57.0164
1338.01	33.8087	264.019	33.5193	264.165	40.3384	-76.4562	40.2153	-76.0226	47.3839	-57.3998	47.0943	-56.9533
1344.81	35.0811	264.535	34.5772	264.694	41.8438	-76.234	41.6361	-76.0077	49.0139	-57.1219	48.7489	-56.8328
1351.61	35.8871	265.151	35.6922	265.123	43.3443	-76.6033	43.1493	-76.0467	50.7771	-56.9181	50.5212	-56.6247
1358.41	36.983	265.554	36.871	265.453	44.9041	-76.9317	44.766	-76.1333	52.7042	-56.7705	52.4188	-56.2895
1365.21	38.2321	265.166	38.1206	265.684	46.8016	-76.5535	46.497	-76.2604	54.4912	-55.9233	54.4459	-55.7757
1372.01	39.7853	266.051	39.4486	265.815	48.2846	-76.7541	48.3539	-76.4192	56.8497	-55.4222	56.6029	-55.0156
1378.81	40.9582	265.454	40.8631	265.844	50.3404	-76.8985	50.3478	-76.5988	59.1772	-54.2726	58.884	-53.9177
1385.6	43.0872	265.69	42.372	265.77	52.5893	-77.6513	52.4887	-76.7861	61.7446	-52.5033	61.2739	-52.3594
1392.4	44.0221	265.878	43.9849	265.589	55.0068	-77.7198	54.7872	-76.9633	63.9663	-49.8753	63.7462	-50.1693
1399.2	45.9176	265.108	45.7107	265.296	57.1624	-78.021	57.2511	-77.1082	66.7307	-46.9784	66.2557	-47.1133
1406	47.7391	264.641	47.558	264.882	60.1445	-78.2194	59.885	-77.1886	69.1218	-42.6107	68.7314	-42.8716
1412.8	50.1832	263.588	49.5356	264.338	62.9073	-77.2345	62.6908	-77.1597	71.4739	-36.978	71.0682	-37.0322
1419.61	51.9113	264.086	51.6516	263.648	65.4996	-77.387	65.665	-76.9533	73.5169	-28.4238	73.1151	-29.1412
1426.41	54.2292	261.684	53.9128	262.79	68.7382	-77.1674	68.7979	-76.4588	74.6077	-17.4502	74.674	-18.9127
1433.21	56.7819	262.481	56.3228	261.734	72.4297	-77.0821	72.0696	-75.4846	75.7895	-4.892201	75.5322	-6.666344
1440.02	59.0704	260.012	58.8835	260.436	75.7541	-74.6679	75.4498	-73.656	75.667	8.399322	75.5484	6.355019
1446.82	61.8318	256.926	61.5923	258.828	79.1501	-71.1834	78.8876	-70.1405	74.6991	20.2749	74.7423	18.4497
1453.63	64.6838	256.409	64.4386	256.808	82.9163	-65.5044	82.278	-62.6822	73.1476	30.6195	73.2833	28.4661
1460.44	67.9774	253.218	67.4053	254.212	85.6999	-43.4111	85.3086	-43.4544	71.109	37.6687	71.3915	36.1821
1467.25	71.0192	249.423	70.4602	250.77	87.0372	14.0326	86.6133	6.939890	69.1071	43.3689	69.2593	41.9149
1474.06	74.0572	244.216	73.5531	246.005	84.6989	56.5706	84.7367	49.5895	66.7702	47.2136	67.0247	46.1186
1480.87	76.973	236.414	76.5948	239.035	81.5472	69.2762	81.6743	64.7524	64.4795	50.2778	64.7803	49.1928
1487.68	80.0478	225.462	79.4184	228.179	78.1229	73.9495	78.4235	70.9791	62.3452	52.5341	62.5847	51.4425
1494.5	81.3693	203.563	81.6835	210.593	74.8342	75.7207	75.2076	74.0351	60.148	53.9384	60.4737	53.0899
1501.32	82.8244	177.171	82.773	184.524	71.4239	77.4706	72.1009	75.6776	57.7729	54.5343	58.4668	54.2956
1508.14	81.1906	152.388	82.1826	156.924	68.7493	78.1984	69.1388	76.5848	56.3132	56.0705	56.5744	55.1738
1514.97	79.5604	133.147	80.2633	137.023	65.9173	79.8256	66.3361	77.0728	54.4132	56.2476	54.7981	55.8093
1521.79	76.7175	122.74	77.6948	124.694	63.2723	78.0569	63.7016	77.3064	52.84	56.2636	53.1373	56.2636
1528.62	73.7579	116.215	74.8859	116.902	60.8866	78.557	61.2348	77.3802	51.3152	57.3075	51.5868	56.5828
1535.45	71.1708	111.029	72.03	111.667	58.3701	78.6037	58.9321	77.3533	49.6889	57.6221	50.1403	56.8021
1542.29	68.7825	106.53	69.2217	107.94	56.3767	77.2916	56.7869	77.2633	48.4688	56.7841	48.7908	56.9477
1549.12	65.8096	106.468	66.5116	105.161	54.2586	78.6966	54.7916	77.1358	47.3824	57.5749	47.5315	57.0398
1555.96	63.0742	100.834	63.9248	103.013	52.4496	77.8429	52.936	76.9889	46.0144	57.4603	46.3543	57.0944
1562.81	60.7439	101.04	61.4745	101.306	51.2629	77.6843	51.2103	76.8353	45.0994	57.128	45.2524	57.1234
1569.65	57.4713	100.442	59.1662	99.9243	49.1806	77.5124	49.6049	76.6842	44.03	57.7623	44.2189	57.1363
1576.5	55.7868	99.338	56.9994	98.7893	48.0339	77.5959	48.1096	76.5429	43.0179	57.386	43.2474	57.1408
1583.36	54.0294	98.4339	54.97	97.848	46.3384	77.302	46.7148	76.4162	42.1075	57.5333	42.3317	57.1424
1590.21	52.1389	98.23	53.073	97.0642	45.3892	77.8812	45.4122	76.3078	41.1071	57.8553	41.4666	57.1456
1597.08	50.6593	98.2397	51.3008	96.4114	43.7557	77.4265	44.193	76.2208	40.4398	57.7038	40.647	57.154
1603.94	49.1378	97.3428	49.646	95.8697	42.8998	76.7629	43.0499	76.157	40.0016	58.0809	39.8683	57.1701
1610.81	47.3367	95.7722	48.1004	95.4241	41.6893	75.9615	41.9757	76.1178	38.9731	57.2335	39.1262	57.1959
1617.68	45.5212	95.4472	46.6562	95.0638	40.7531	76.0842	40.9641	76.1045	38.6273	57.5485	38.4173	57.2331
1624.56	44.9146	95.3569	45.3053	94.7791	39.814	77.6445	40.009	76.1175	37.5902	57.8187	37.7377	57.2825
1631.44	43.8418	94.7473	44.0405	94.563	39.1594	76.9816	39.105	76.1572	36.8013	57.893	37.0844	57.3449
1638.33	42.6373	96.0569	42.855	94.4099	37.9351	77.6115	38.2478	76.2239	36.5136	57.7121	36.4549	57.4209
1645.22	41.4626	94.2787	41.7419	94.3147	37.1578	77.2932	37.4324	76.3176	35.7192	57.7673	35.8463	57.5107
1652.11	40.7617	94.075	40.6952	94.2732	36.2931	76.9105	36.655	76.4379	35.2476	57.7878	35.2563	57.6143
1659.01	39.6397	96.1886	39.7092	94.2823	36.0155	77.6724	35.9118	76.585	34.3294	58.683	34.6829	57.7318
1665.92	38.5901	94.228	38.779	94.3389	35.0907	76.7001	35.2	76.7584	34.2278	57.8837	34.1241	57.8629
1672.83	37.504	95.0764	37.9001	94.4402	34.8598	77.504	34.5164	76.9575	33.2367	57.9934	33.5784	58.0074
1679.74	35.972	98.324	37.0675	94.5842	34.0097	76.1809	33.8581	77.1824	32.5303	59.1635	33.0439	58.165
1686.66	36.1472	96.5077	36.2778	94.7689	31.8551	77.7831	33.2229	77.4324	31.654	58.8328	32.5193	58.3353